{
  "entry": [{
      "fullUrl": "http://localhost:8081/clientregistry/fhir/Patient/bc58707b-62f1-498a-8fb3-568cd5b69db2",
      "resource": {
        "resourceType": "Patient",
        "id": "bc58707b-62f1-498a-8fb3-568cd5b69db2",
        "meta": {
          "versionId": "7",
          "lastUpdated": "2020-09-21T17:52:37.139+03:00",
          "source": "#JHiaNVdzQ7IoaoMF",
          "tag": [{
              "system": "http://openclientregistry.org/fhir/clientid",
              "code": "openmrs",
              "display": "OpenMRS"
            },
            {
              "system": "http://openclientregistry.org/fhir/humanAdjudication",
              "code": "humanAdjudication",
              "display": "Matched By Human"
            }
          ]
        },
        "text": {
          "status": "generated",
          "div": "<div xmlns=\"http://www.w3.org/1999/xhtml\"><div class=\"hapiHeaderText\">Emmanuel <b>JOSHUA </b></div><table class=\"hapiPropertyTable\"><tbody><tr><td>Identifier</td><td>patient1</td></tr><tr><td>Date of birth</td><td><span>08 January 1972</span></td></tr></tbody></table></div>"
        },
        "identifier": [{
            "system": "http://clientregistry.org/openmrs",
            "value": "patient1"
          },
          {
            "system": "http://health.go.ug/cr/nationalid",
            "value": "228374844"
          },
          {
            "system": "http://system1.org",
            "value": "12347",
            "period": {
              "start": "2001-05-07"
            },
            "assigner": {
              "display": "test Org"
            }
          }
        ],
        "active": true,
        "name": [{
          "use": "official",
          "family": "Joshua",
          "given": [
            "Emmanuel"
          ]
        }],
        "telecom": [{
          "system": "phone",
          "value": "0678 561608"
        }],
        "gender": "male",
        "birthDate": "1972-01-08",
        "link": [{
          "other": {
            "reference": "Patient/739d4023-40eb-4f44-8d14-3355926bd60d"
          },
          "type": "refer"
        }]
      },
      "search": {
        "mode": "match"
      }
    },
    {
      "fullUrl": "http://localhost:8081/clientregistry/fhir/Patient/739d4023-40eb-4f44-8d14-3355926bd60d",
      "resource": {
        "resourceType": "Patient",
        "id": "739d4023-40eb-4f44-8d14-3355926bd60d",
        "meta": {
          "versionId": "11",
          "lastUpdated": "2020-09-21T12:36:29.650+03:00",
          "source": "#Y7qwi6bMKL1PEbLk",
          "tag": [{
            "code": "5c827da5-4858-4f3d-a50c-62ece001efea",
            "display": "Golden Record"
          }]
        },
        "text": {
          "status": "generated",
          "div": "<div xmlns=\"http://www.w3.org/1999/xhtml\"><table class=\"hapiPropertyTable\"><tbody/></table></div>"
        },
        "link": [{
            "other": {
              "reference": "Patient/bc58707b-62f1-498a-8fb3-568cd5b69db2"
            },
            "type": "seealso"
          },
          {
            "other": {
              "reference": "Patient/d55e15fd-d7a6-42b8-89cc-560e3578ef7f"
            },
            "type": "seealso"
          }
        ]
      },
      "search": {
        "mode": "match"
      }
    },
    {
      "fullUrl": "http://localhost:8081/clientregistry/fhir/Patient/d55e15fd-d7a6-42b8-89cc-560e3578ef7f",
      "resource": {
        "resourceType": "Patient",
        "id": "d55e15fd-d7a6-42b8-89cc-560e3578ef7f",
        "meta": {
          "versionId": "5",
          "lastUpdated": "2020-09-21T17:52:30.322+03:00",
          "source": "#eWpD2b2UblNFeNoD",
          "tag": [{
              "system": "http://openclientregistry.org/fhir/clientid",
              "code": "openmrs",
              "display": "OpenMRS"
            },
            {
              "system": "http://openclientregistry.org/fhir/humanAdjudication",
              "code": "humanAdjudication",
              "display": "Matched By Human"
            }
          ]
        },
        "text": {
          "status": "generated",
          "div": "<div xmlns=\"http://www.w3.org/1999/xhtml\"><div class=\"hapiHeaderText\">Emanuel <b>JOSHUA </b></div><table class=\"hapiPropertyTable\"><tbody><tr><td>Identifier</td><td>patient2</td></tr><tr><td>Date of birth</td><td><span>08 January 1972</span></td></tr></tbody></table></div>"
        },
        "identifier": [{
            "system": "http://clientregistry.org/openmrs",
            "value": "patient2"
          },
          {
            "system": "http://health.go.ug/cr/nationalid",
            "value": "228374844"
          },
          {
            "system": "http://system1.org",
            "value": "12347",
            "period": {
              "start": "2001-05-07"
            },
            "assigner": {
              "display": "test Org"
            }
          }
        ],
        "active": true,
        "name": [{
          "use": "official",
          "family": "Joshua",
          "given": [
            "Emanuel"
          ]
        }],
        "telecom": [{
          "system": "phone",
          "value": "0678 561608"
        }],
        "gender": "male",
        "birthDate": "1972-01-08",
        "link": [{
          "other": {
            "reference": "Patient/739d4023-40eb-4f44-8d14-3355926bd60d"
          },
          "type": "refer"
        }]
      },
      "search": {
        "mode": "match"
      }
    },
    {
      "fullUrl": "http://localhost:8081/clientregistry/fhir/Patient/433ebeb6-1d89-4b64-97e6-a985675ca571",
      "resource": {
        "resourceType": "Patient",
        "id": "433ebeb6-1d89-4b64-97e6-a985675ca571",
        "meta": {
          "versionId": "5",
          "lastUpdated": "2020-09-21T12:36:28.317+03:00",
          "source": "#TFj3udqBSswrIvMC",
          "tag": [{
              "system": "http://openclientregistry.org/fhir/clientid",
              "code": "openmrs",
              "display": "OpenMRS"
            },
            {
              "system": "http://openclientregistry.org/fhir/matchIssues",
              "code": "potentialMatches",
              "display": "Potential Matches"
            }
          ]
        },
        "text": {
          "status": "generated",
          "div": "<div xmlns=\"http://www.w3.org/1999/xhtml\"><div class=\"hapiHeaderText\">Emanuel <b>JOSHUA </b></div><table class=\"hapiPropertyTable\"><tbody><tr><td>Identifier</td><td>patient3</td></tr><tr><td>Date of birth</td><td><span>08 January 1972</span></td></tr></tbody></table></div>"
        },
        "identifier": [{
            "system": "http://clientregistry.org/openmrs",
            "value": "patient3"
          },
          {
            "system": "http://health.go.ug/cr/nationalid",
            "value": "228374844"
          },
          {
            "system": "http://system1.org",
            "value": "12347",
            "period": {
              "start": "2001-05-07"
            },
            "assigner": {
              "display": "test Org"
            }
          }
        ],
        "active": true,
        "name": [{
          "use": "official",
          "family": "Joshua",
          "given": [
            "Emanuel"
          ]
        }],
        "telecom": [{
          "system": "phone",
          "value": "0678 56160"
        }],
        "gender": "male",
        "birthDate": "1972-01-08",
        "link": [{
          "other": {
            "reference": "Patient/c49a52c1-88bc-41fb-9c87-bdd2a911f360"
          },
          "type": "refer"
        }]
      },
      "search": {
        "mode": "match"
      }
    },
    {
      "fullUrl": "http://localhost:8081/clientregistry/fhir/Patient/c49a52c1-88bc-41fb-9c87-bdd2a911f360",
      "resource": {
        "resourceType": "Patient",
        "id": "c49a52c1-88bc-41fb-9c87-bdd2a911f360",
        "meta": {
          "versionId": "3",
          "lastUpdated": "2020-09-21T12:36:29.348+03:00",
          "source": "#sgNi30Z3v1dUiEsU",
          "tag": [{
            "code": "5c827da5-4858-4f3d-a50c-62ece001efea",
            "display": "Golden Record"
          }]
        },
        "text": {
          "status": "generated",
          "div": "<div xmlns=\"http://www.w3.org/1999/xhtml\"><table class=\"hapiPropertyTable\"><tbody/></table></div>"
        },
        "link": [{
          "other": {
            "reference": "Patient/433ebeb6-1d89-4b64-97e6-a985675ca571"
          },
          "type": "seealso"
        }]
      },
      "search": {
        "mode": "match"
      }
    }
  ],
  "next": false
}